 number  2Theta(deg.)             d(Å)           Q(Å-1)   sin_Th/l (A-1)        1/d (A-1)        wave
--------------------------------------------------------------------------------------------------------------
   1         11.29105          7.83015          0.80244          0.06386          0.12771          1.54056
   2         11.31915          7.83019          0.80243          0.06386          0.12771          1.54439
   3         19.93865          4.44938          1.41215          0.11238          0.22475          1.54056
   4         19.98875          4.44937          1.41215          0.11238          0.22475          1.54439
   5         20.26675          4.37808          1.43515          0.11421          0.22841          1.54056
   6         20.31765          4.37808          1.43515          0.11421          0.22841          1.54439
   7         22.00905          4.03528          1.55706          0.12391          0.24781          1.54056
   8         22.06445          4.03528          1.55706          0.12391          0.24781          1.54439
   9         22.69355          3.91509          1.60487          0.12771          0.25542          1.54056
  10         22.75075          3.91508          1.60487          0.12771          0.25542          1.54439
  11         23.83575          3.73000          1.68450          0.13405          0.26810          1.54056
  12         23.89585          3.73000          1.68450          0.13405          0.26810          1.54439
  13         24.19845          3.67491          1.70975          0.13606          0.27212          1.54056
  14         24.25955          3.67490          1.70976          0.13606          0.27212          1.54439
  15         24.44675          3.63814          1.72703          0.13743          0.27487          1.54056
  16         24.50845          3.63814          1.72703          0.13743          0.27487          1.54439
  17         28.11615          3.17111          1.98138          0.15767          0.31535          1.54056
  18         28.18745          3.17112          1.98138          0.15767          0.31535          1.54439
  19         28.52905          3.12615          2.00988          0.15994          0.31988          1.54056
  20         28.60145          3.12615          2.00988          0.15994          0.31988          1.54439
  21         28.66375          3.11176          2.01917          0.16068          0.32136          1.54056
  22         28.73655          3.11176          2.01917          0.16068          0.32136          1.54439
  23         29.05885          3.07035          2.04641          0.16285          0.32570          1.54056
  24         29.13275          3.07034          2.04641          0.16285          0.32570          1.54439
  25         29.36135          3.03940          2.06725          0.16451          0.32901          1.54056
  26         29.43605          3.03939          2.06725          0.16451          0.32901          1.54439
  27         29.44295          3.03116          2.07286          0.16495          0.32991          1.54056
  28         29.51785          3.03116          2.07287          0.16495          0.32991          1.54439
  29         32.44645          2.75710          2.27891          0.18135          0.36270          1.54056
  30         32.52935          2.75710          2.27891          0.18135          0.36270          1.54439
  31         33.07175          2.70639          2.32161          0.18475          0.36950          1.54056
  32         33.10695          2.70359          2.32402          0.18494          0.36988          1.54056
  33         33.15635          2.70639          2.32161          0.18475          0.36950          1.54439
  34         33.19165          2.70359          2.32402          0.18494          0.36988          1.54439
  35         33.87465          2.64405          2.37635          0.18910          0.37821          1.54056
  36         33.96145          2.64405          2.37635          0.18910          0.37821          1.54439
  37         34.32955          2.61005          2.40730          0.19157          0.38313          1.54056
  38         34.41755          2.61005          2.40730          0.19157          0.38313          1.54439
  39         35.08525          2.55554          2.45865          0.19565          0.39131          1.54056
  40         35.17535          2.55554          2.45865          0.19565          0.39131          1.54439
  41         35.28095          2.54182          2.47193          0.19671          0.39342          1.54056
  42         35.37155          2.54182          2.47193          0.19671          0.39342          1.54439
  43         36.35465          2.46917          2.54465          0.20250          0.40499          1.54056
  44         36.44815          2.46917          2.54465          0.20250          0.40499          1.54439
  45         36.51195          2.45889          2.55529          0.20334          0.40669          1.54056
  46         36.60595          2.45889          2.55529          0.20334          0.40669          1.54439
  47         37.73495          2.38196          2.63782          0.20991          0.41982          1.54056
  48         37.83235          2.38196          2.63782          0.20991          0.41982          1.54439
  49         37.90175          2.37186          2.64905          0.21080          0.42161          1.54056
  50         37.94645          2.36917          2.65206          0.21104          0.42209          1.54056
  51         37.99965          2.37186          2.64905          0.21081          0.42161          1.54439
  52         38.04445          2.36917          2.65206          0.21104          0.42209          1.54439
  53         38.25885          2.35054          2.67308          0.21272          0.42543          1.54056
  54         38.35775          2.35054          2.67308          0.21272          0.42543          1.54439
  55         39.34715          2.28800          2.74615          0.21853          0.43706          1.54056
  56         39.44905          2.28800          2.74615          0.21853          0.43706          1.54439
  57         39.86955          2.25922          2.78114          0.22132          0.44263          1.54056
  58         39.97295          2.25921          2.78114          0.22132          0.44263          1.54439
  59         40.25765          2.23833          2.80709          0.22338          0.44676          1.54056
  60         40.36215          2.23832          2.80710          0.22338          0.44676          1.54439
  61         40.51525          2.22469          2.82430          0.22475          0.44950          1.54056
  62         40.62035          2.22469          2.82430          0.22475          0.44950          1.54439
  63         40.91445          2.20390          2.85094          0.22687          0.45374          1.54056
  64         41.02075          2.20390          2.85094          0.22687          0.45374          1.54439
  65         41.20475          2.18904          2.87029          0.22841          0.45682          1.54056
  66         41.31185          2.18904          2.87029          0.22841          0.45682          1.54439
  67         41.38685          2.17983          2.88242          0.22938          0.45875          1.54056
  68         41.42835          2.17774          2.88519          0.22960          0.45919          1.54056
  69         41.49445          2.17983          2.88242          0.22938          0.45875          1.54439
  70         41.53615          2.17774          2.88519          0.22960          0.45919          1.54439
  71         42.23265          2.13811          2.93867          0.23385          0.46770          1.54056
  72         42.34275          2.13810          2.93867          0.23385          0.46770          1.54439
  73         42.37665          2.13117          2.94823          0.23461          0.46922          1.54056
  74         42.48705          2.13118          2.94822          0.23461          0.46922          1.54439
  75         43.69865          2.06972          3.03577          0.24158          0.48316          1.54056
  76         43.76915          2.06655          3.04043          0.24195          0.48390          1.54056
  77         43.81285          2.06972          3.03577          0.24158          0.48316          1.54439
  78         43.88365          2.06654          3.04043          0.24195          0.48390          1.54439
  79         44.25615          2.04493          3.07257          0.24451          0.48901          1.54056
  80         44.37205          2.04493          3.07257          0.24451          0.48902          1.54439
  81         44.88715          2.01764          3.11413          0.24781          0.49563          1.54056
  82         45.00485          2.01764          3.11413          0.24781          0.49563          1.54439
  83         46.34415          1.95754          3.20974          0.25542          0.51085          1.54056
  84         46.35555          1.95708          3.21048          0.25548          0.51096          1.54056
  85         46.46615          1.95754          3.20974          0.25542          0.51085          1.54439
  86         46.47755          1.95709          3.21048          0.25548          0.51096          1.54439
  87         47.69845          1.90507          3.29814          0.26246          0.52491          1.54056
  88         47.76715          1.90249          3.30261          0.26281          0.52563          1.54056
  89         47.82435          1.90507          3.29813          0.26246          0.52491          1.54439
  90         47.89335          1.90249          3.30261          0.26281          0.52563          1.54439
  91         48.02435          1.89290          3.31934          0.26414          0.52829          1.54056
  92         48.14065          1.88860          3.32690          0.26475          0.52949          1.54056
  93         48.15125          1.89290          3.31934          0.26414          0.52829          1.54439
  94         48.26795          1.88860          3.32690          0.26475          0.52949          1.54439
  95         48.43575          1.87778          3.34607          0.26627          0.53254          1.54056
  96         48.54965          1.87364          3.35346          0.26686          0.53372          1.54056
  97         48.56385          1.87778          3.34606          0.26627          0.53254          1.54439
  98         48.67815          1.87364          3.35346          0.26686          0.53372          1.54439
  99         48.78915          1.86500          3.36900          0.26810          0.53619          1.54056
 100         48.91845          1.86500          3.36900          0.26810          0.53619          1.54439
 101         49.34085          1.84543          3.40472          0.27094          0.54188          1.54056
 102         49.47175          1.84543          3.40472          0.27094          0.54188          1.54439
 103         49.47815          1.84063          3.41360          0.27165          0.54329          1.54056
 104         49.48895          1.84026          3.41430          0.27170          0.54340          1.54056
 105         49.56945          1.83746          3.41950          0.27212          0.54423          1.54056
 106         49.60945          1.84063          3.41360          0.27165          0.54329          1.54439
 107         49.62035          1.84025          3.41430          0.27170          0.54340          1.54439
 108         49.70105          1.83746          3.41950          0.27212          0.54423          1.54439
 109         49.77845          1.83023          3.43300          0.27319          0.54638          1.54056
 110         49.91065          1.83023          3.43300          0.27319          0.54638          1.54439
 111         50.10485          1.81907          3.45407          0.27487          0.54973          1.54056
 112         50.22665          1.81494          3.46192          0.27549          0.55098          1.54056
 113         50.23805          1.81907          3.45407          0.27487          0.54973          1.54439
 114         50.36025          1.81494          3.46192          0.27549          0.55098          1.54439
 115         50.76915          1.79681          3.49685          0.27827          0.55654          1.54056
 116         50.83485          1.79465          3.50107          0.27861          0.55721          1.54056
 117         50.90445          1.79681          3.49685          0.27827          0.55654          1.54439
 118         50.97025          1.79465          3.50107          0.27861          0.55721          1.54439
 119         51.06025          1.78725          3.51556          0.27976          0.55952          1.54056
 120         51.19635          1.78725          3.51556          0.27976          0.55952          1.54439
 121         51.78165          1.76404          3.56182          0.28344          0.56688          1.54056
 122         51.81195          1.76308          3.56376          0.28360          0.56719          1.54056
 123         51.90485          1.76014          3.56971          0.28407          0.56814          1.54056
 124         51.91995          1.76404          3.56182          0.28344          0.56688          1.54439
 125         51.95035          1.76308          3.56376          0.28360          0.56719          1.54439
 126         52.02165          1.75646          3.57719          0.28466          0.56933          1.54056
 127         52.04355          1.76014          3.56971          0.28407          0.56814          1.54439
 128         52.16075          1.75646          3.57719          0.28466          0.56933          1.54439
 129         52.16465          1.75198          3.58633          0.28539          0.57078          1.54056
 130         52.30415          1.75198          3.58633          0.28539          0.57078          1.54439
 131         52.55945          1.73975          3.61155          0.28740          0.57480          1.54056
 132         52.70015          1.73975          3.61155          0.28740          0.57480          1.54439
 133         52.70495          1.73529          3.62083          0.28814          0.57627          1.54056
 134         52.84605          1.73529          3.62083          0.28814          0.57627          1.54439
 135         52.95595          1.72765          3.63684          0.28941          0.57882          1.54056
 136         53.04245          1.72504          3.64235          0.28985          0.57970          1.54056
 137         53.09785          1.72765          3.63683          0.28941          0.57882          1.54439
 138         53.18465          1.72504          3.64235          0.28985          0.57970          1.54439
 139         53.49745          1.71143          3.67130          0.29215          0.58431          1.54056
 140         53.64105          1.71144          3.67130          0.29215          0.58430          1.54439
 141         54.15105          1.69231          3.71278          0.29545          0.59091          1.54056
 142         54.17525          1.69161          3.71432          0.29558          0.59115          1.54056
 143         54.29665          1.69231          3.71278          0.29545          0.59091          1.54439
 144         54.32095          1.69161          3.71431          0.29558          0.59115          1.54439
 145         55.57455          1.65229          3.80272          0.30261          0.60522          1.54056
 146         55.72475          1.65229          3.80272          0.30261          0.60522          1.54439
 147         56.04795          1.63945          3.83250          0.30498          0.60996          1.54056
 148         56.13075          1.63723          3.83770          0.30539          0.61079          1.54056
 149         56.19955          1.63945          3.83249          0.30498          0.60996          1.54439
 150         56.28275          1.63722          3.83770          0.30539          0.61079          1.54439
 151         56.44385          1.62888          3.85735          0.30696          0.61392          1.54056
 152         56.59675          1.62889          3.85735          0.30696          0.61392          1.54439
 153         56.67235          1.62286          3.87168          0.30810          0.61620          1.54056
 154         56.82605          1.62286          3.87168          0.30810          0.61620          1.54439
 155         56.83485          1.61860          3.88186          0.30891          0.61782          1.54056
 156         56.84885          1.61824          3.88273          0.30898          0.61796          1.54056
 157         56.98905          1.61860          3.88186          0.30891          0.61782          1.54439
 158         56.99435          1.61445          3.89184          0.30970          0.61941          1.54056
 159         57.00315          1.61824          3.88274          0.30898          0.61796          1.54439
 160         57.14915          1.61445          3.89184          0.30970          0.61941          1.54439
 161         57.30205          1.60651          3.91107          0.31123          0.62247          1.54056
 162         57.45775          1.60651          3.91107          0.31123          0.62247          1.54439
 163         57.45785          1.60253          3.92080          0.31201          0.62401          1.54056
 164         57.61405          1.60253          3.92080          0.31201          0.62401          1.54439
 165         58.13115          1.58556          3.96276          0.31535          0.63069          1.54056
 166         58.14085          1.58532          3.96337          0.31539          0.63079          1.54056
 167         58.28955          1.58556          3.96276          0.31535          0.63069          1.54439
 168         58.29925          1.58532          3.96336          0.31539          0.63079          1.54439
 169         58.72155          1.57102          3.99944          0.31827          0.63653          1.54056
 170         58.80235          1.56905          4.00446          0.31866          0.63733          1.54056
 171         58.81445          1.56875          4.00521          0.31872          0.63745          1.54056
 172         58.88185          1.57102          3.99944          0.31827          0.63653          1.54439
 173         58.92685          1.56603          4.01217          0.31928          0.63856          1.54056
 174         58.96295          1.56905          4.00446          0.31866          0.63733          1.54439
 175         58.97505          1.56876          4.00520          0.31872          0.63745          1.54439
 176         59.02045          1.56377          4.01797          0.31974          0.63948          1.54056
 177         59.04935          1.56307          4.01976          0.31988          0.63977          1.54056
 178         59.08785          1.56603          4.01217          0.31928          0.63856          1.54439
 179         59.11665          1.56145          4.02393          0.32021          0.64043          1.54056
 180         59.18185          1.56377          4.01798          0.31974          0.63948          1.54439
 181         59.21075          1.56307          4.01976          0.31988          0.63977          1.54439
 182         59.27825          1.56146          4.02393          0.32021          0.64043          1.54439
 183         59.29055          1.55729          4.03469          0.32107          0.64214          1.54056
 184         59.34965          1.55588          4.03835          0.32136          0.64272          1.54056
 185         59.45275          1.55729          4.03469          0.32107          0.64214          1.54439
 186         59.51205          1.55588          4.03835          0.32136          0.64272          1.54439
 187         59.63125          1.54920          4.05575          0.32275          0.64549          1.54056
 188         59.79455          1.54920          4.05575          0.32275          0.64549          1.54439
 189         60.17625          1.53647          4.08937          0.32542          0.65084          1.54056
 190         60.23235          1.53517          4.09282          0.32570          0.65139          1.54056
 191         60.25315          1.53469          4.09410          0.32580          0.65160          1.54056
 192         60.34145          1.53647          4.08937          0.32542          0.65084          1.54439
 193         60.39765          1.53517          4.09282          0.32570          0.65139          1.54439
 194         60.41855          1.53469          4.09410          0.32580          0.65160          1.54439
 195         60.91035          1.51970          4.13450          0.32901          0.65803          1.54056
 196         61.07795          1.51970          4.13450          0.32901          0.65803          1.54439
 197         61.09355          1.51558          4.14573          0.32991          0.65981          1.54056
 198         61.26175          1.51558          4.14573          0.32991          0.65981          1.54439
 199         61.60515          1.50421          4.17706          0.33240          0.66480          1.54056
 200         61.69635          1.50221          4.18263          0.33284          0.66569          1.54056
 201         61.72445          1.50159          4.18435          0.33298          0.66596          1.54056
 202         61.76445          1.50072          4.18679          0.33317          0.66635          1.54056
 203         61.77505          1.50421          4.17706          0.33240          0.66480          1.54439
 204         61.86655          1.50221          4.18263          0.33284          0.66569          1.54439
 205         61.89475          1.50159          4.18435          0.33298          0.66596          1.54439
 206         61.93485          1.50072          4.18679          0.33317          0.66635          1.54439
 207         62.33055          1.48844          4.22132          0.33592          0.67184          1.54056
 208         62.50295          1.48844          4.22133          0.33592          0.67184          1.54439
 209         62.57895          1.48313          4.23644          0.33713          0.67425          1.54056
 210         62.75225          1.48313          4.23645          0.33713          0.67425          1.54439
 211         63.32505          1.46744          4.28174          0.34073          0.68146          1.54056
 212         63.34465          1.46703          4.28293          0.34082          0.68165          1.54056
 213         63.50085          1.46744          4.28174          0.34073          0.68146          1.54439
 214         63.52045          1.46703          4.28293          0.34082          0.68165          1.54439
 215         63.66795          1.46036          4.30250          0.34238          0.68476          1.54056
 216         63.71665          1.45936          4.30544          0.34262          0.68523          1.54056
 217         63.71765          1.45934          4.30550          0.34262          0.68524          1.54056
 218         63.84495          1.46036          4.30250          0.34238          0.68476          1.54439
 219         63.89375          1.45936          4.30544          0.34262          0.68523          1.54439
 220         63.89475          1.45934          4.30550          0.34262          0.68524          1.54439
 221         63.99495          1.45368          4.32225          0.34395          0.68791          1.54056
 222         64.10405          1.45147          4.32884          0.34448          0.68896          1.54056
 223         64.17305          1.45368          4.32226          0.34395          0.68791          1.54439
 224         64.28245          1.45147          4.32883          0.34448          0.68896          1.54439
 225         64.35405          1.44643          4.34391          0.34568          0.69135          1.54056
 226         64.53335          1.44644          4.34391          0.34568          0.69135          1.54439
 227         64.76465          1.43825          4.36862          0.34764          0.69529          1.54056
 228         64.81335          1.43729          4.37155          0.34788          0.69575          1.54056
 229         64.94545          1.43825          4.36862          0.34764          0.69529          1.54439
 230         64.97835          1.43404          4.38146          0.34867          0.69733          1.54056
 231         64.99435          1.43729          4.37155          0.34788          0.69575          1.54439
 232         65.15985          1.43404          4.38146          0.34867          0.69733          1.54439
 233         65.43495          1.42513          4.40884          0.35084          0.70169          1.54056
 234         65.54145          1.42307          4.41522          0.35135          0.70270          1.54056
 235         65.61805          1.42513          4.40884          0.35084          0.70169          1.54439
 236         65.65205          1.42094          4.42184          0.35188          0.70376          1.54056
 237         65.72495          1.42307          4.41522          0.35135          0.70270          1.54439
 238         65.82815          1.41757          4.43236          0.35272          0.70543          1.54056
 239         65.83595          1.42094          4.42184          0.35188          0.70376          1.54439
 240         66.01265          1.41757          4.43236          0.35272          0.70543          1.54439
 241         66.52875          1.40433          4.47415          0.35604          0.71208          1.54056
 242         66.66845          1.40173          4.48246          0.35670          0.71341          1.54056
 243         66.71575          1.40433          4.47415          0.35604          0.71208          1.54439
 244         66.85595          1.40173          4.48246          0.35670          0.71341          1.54439
 245         67.42015          1.38792          4.52707          0.36025          0.72051          1.54056
 246         67.61035          1.38791          4.52707          0.36025          0.72051          1.54439
 247         67.79135          1.38122          4.54902          0.36200          0.72400          1.54056
 248         67.94035          1.37855          4.55782          0.36270          0.72540          1.54056
 249         67.98285          1.38122          4.54902          0.36200          0.72400          1.54439
 250         68.01235          1.37727          4.56207          0.36304          0.72608          1.54056
 251         68.13235          1.37855          4.55782          0.36270          0.72540          1.54439
 252         68.20465          1.37727          4.56207          0.36304          0.72608          1.54439
 253         68.59015          1.36707          4.59611          0.36575          0.73149          1.54056
 254         68.78455          1.36707          4.59611          0.36575          0.73149          1.54439
 255         69.07405          1.35867          4.62453          0.36801          0.73602          1.54056
 256         69.27025          1.35867          4.62453          0.36801          0.73602          1.54439
 257         69.28105          1.35511          4.63666          0.36897          0.73795          1.54056
 258         69.36685          1.35364          4.64168          0.36937          0.73875          1.54056
 259         69.39325          1.35319          4.64323          0.36950          0.73899          1.54056
 260         69.47545          1.35179          4.64804          0.36988          0.73976          1.54056
 261         69.47795          1.35511          4.63665          0.36897          0.73795          1.54439
 262         69.56405          1.35365          4.64168          0.36937          0.73875          1.54439
 263         69.59055          1.35319          4.64322          0.36950          0.73899          1.54439
 264         69.67305          1.35179          4.64803          0.36988          0.73976          1.54439
 265         69.69915          1.34800          4.66111          0.37092          0.74184          1.54056
 266         69.87195          1.34509          4.67120          0.37172          0.74344          1.54056
 267         69.89765          1.34800          4.66111          0.37092          0.74184          1.54439
 268         69.91685          1.34434          4.67382          0.37193          0.74386          1.54056
 269         69.95575          1.34368          4.67609          0.37211          0.74422          1.54056
 270         70.07105          1.34509          4.67120          0.37172          0.74344          1.54439
 271         70.11615          1.34434          4.67382          0.37193          0.74386          1.54439
 272         70.15515          1.34368          4.67609          0.37211          0.74422          1.54439
 273         70.28905          1.33813          4.69551          0.37366          0.74731          1.54056
 274         70.48965          1.33813          4.69551          0.37366          0.74731          1.54439
 275         70.65505          1.33209          4.71679          0.37535          0.75070          1.54056
 276         70.77455          1.33013          4.72373          0.37590          0.75180          1.54056
 277         70.85715          1.33209          4.71679          0.37535          0.75070          1.54439
 278         70.90305          1.32804          4.73118          0.37650          0.75299          1.54056
 279         70.97705          1.33013          4.72373          0.37590          0.75180          1.54439
 280         71.03185          1.32594          4.73865          0.37709          0.75418          1.54056
 281         71.04055          1.32580          4.73915          0.37713          0.75426          1.54056
 282         71.10605          1.32804          4.73118          0.37650          0.75299          1.54439
 283         71.23535          1.32594          4.73865          0.37709          0.75418          1.54439
 284         71.24405          1.32580          4.73915          0.37713          0.75426          1.54439
 285         71.27455          1.32202          4.75270          0.37821          0.75642          1.54056
 286         71.42125          1.31967          4.76118          0.37888          0.75777          1.54056
 287         71.43865          1.31939          4.76219          0.37896          0.75793          1.54056
 288         71.47895          1.32202          4.75270          0.37821          0.75642          1.54439
 289         71.62615          1.31967          4.76118          0.37888          0.75777          1.54439
 290         71.63575          1.31624          4.77357          0.37987          0.75974          1.54056
 291         71.64355          1.31939          4.76218          0.37896          0.75793          1.54439
 292         71.84145          1.31624          4.77357          0.37987          0.75974          1.54439
 293         71.87755          1.31241          4.78752          0.38098          0.76196          1.54056
 294         72.07625          1.30928          4.79896          0.38189          0.76378          1.54056
 295         72.08425          1.31241          4.78752          0.38098          0.76196          1.54439
 296         72.12975          1.30844          4.80204          0.38213          0.76427          1.54056
 297         72.15985          1.30797          4.80377          0.38227          0.76454          1.54056
 298         72.26735          1.30629          4.80996          0.38276          0.76553          1.54056
 299         72.28365          1.30928          4.79896          0.38189          0.76378          1.54439
 300         72.33735          1.30844          4.80204          0.38213          0.76427          1.54439
 301         72.34825          1.30503          4.81461          0.38313          0.76627          1.54056
 302         72.36755          1.30797          4.80377          0.38227          0.76454          1.54439
 303         72.41265          1.30402          4.81831          0.38343          0.76686          1.54056
 304         72.44975          1.30345          4.82044          0.38360          0.76720          1.54056
 305         72.47545          1.30629          4.80995          0.38276          0.76553          1.54439
 306         72.55665          1.30503          4.81460          0.38313          0.76627          1.54439
 307         72.62135          1.30402          4.81831          0.38343          0.76686          1.54439
 308         72.65855          1.30345          4.82043          0.38360          0.76720          1.54439
 309         72.92945          1.29605          4.84794          0.38579          0.77157          1.54056
 310         73.04285          1.29432          4.85443          0.38630          0.77261          1.54056
 311         73.11115          1.29328          4.85834          0.38661          0.77323          1.54056
 312         73.14015          1.29605          4.84794          0.38579          0.77157          1.54439
 313         73.25405          1.29432          4.85443          0.38630          0.77261          1.54439
 314         73.27885          1.29073          4.86792          0.38738          0.77475          1.54056
 315         73.32255          1.29328          4.85834          0.38661          0.77323          1.54439
 316         73.47445          1.28778          4.87909          0.38827          0.77653          1.54056
 317         73.49085          1.29073          4.86792          0.38738          0.77475          1.54439
 318         73.54615          1.28670          4.88317          0.38859          0.77718          1.54056
 319         73.68715          1.28778          4.87908          0.38826          0.77653          1.54439
 320         73.75925          1.28670          4.88318          0.38859          0.77718          1.54439
 321         73.85785          1.28204          4.90093          0.39000          0.78001          1.54056
 322         74.07215          1.28204          4.90093          0.39000          0.78001          1.54439
 323         74.14575          1.27777          4.91730          0.39131          0.78261          1.54056
 324         74.32605          1.27512          4.92753          0.39212          0.78424          1.54056
 325         74.36115          1.27777          4.91730          0.39131          0.78261          1.54439
 326         74.41635          1.27379          4.93265          0.39253          0.78506          1.54056
 327         74.54215          1.27512          4.92753          0.39212          0.78424          1.54439
 328         74.61425          1.27091          4.94386          0.39342          0.78684          1.54056
 329         74.63145          1.27066          4.94484          0.39350          0.78700          1.54056
 330         74.63275          1.27380          4.93265          0.39253          0.78506          1.54439
 331         74.73105          1.26921          4.95047          0.39395          0.78789          1.54056
 332         74.76725          1.26868          4.95252          0.39411          0.78822          1.54056
 333         74.77295          1.26860          4.95284          0.39413          0.78827          1.54056
 334         74.83145          1.27091          4.94386          0.39342          0.78684          1.54439
 335         74.84875          1.27066          4.94484          0.39350          0.78700          1.54439
 336         74.94875          1.26921          4.95047          0.39395          0.78789          1.54439
 337         74.98505          1.26868          4.95252          0.39411          0.78822          1.54439
 338         74.99085          1.26860          4.95285          0.39413          0.78827          1.54439
 339         75.15415          1.26311          4.97438          0.39585          0.79170          1.54056
 340         75.18965          1.26260          4.97638          0.39601          0.79202          1.54056
 341         75.37345          1.26311          4.97437          0.39585          0.79170          1.54439
 342         75.40915          1.26260          4.97638          0.39601          0.79202          1.54439
 343         75.92005          1.25226          5.01747          0.39928          0.79856          1.54056
 344         76.07585          1.25008          5.02621          0.39997          0.79995          1.54056
 345         76.14245          1.25226          5.01747          0.39928          0.79856          1.54439
 346         76.29885          1.25008          5.02621          0.39997          0.79995          1.54439
 347         76.38475          1.24580          5.04351          0.40135          0.80270          1.54056
 348         76.40315          1.24554          5.04454          0.40143          0.80286          1.54056
 349         76.47885          1.24450          5.04878          0.40177          0.80354          1.54056
 350         76.56335          1.24333          5.05350          0.40214          0.80429          1.54056
 351         76.60905          1.24580          5.04351          0.40135          0.80270          1.54439
 352         76.62745          1.24554          5.04454          0.40143          0.80286          1.54439
 353         76.70355          1.24450          5.04878          0.40177          0.80354          1.54439
 354         76.75095          1.24076          5.06397          0.40298          0.80596          1.54056
 355         76.78835          1.24333          5.05350          0.40214          0.80429          1.54439
 356         76.97675          1.24076          5.06398          0.40298          0.80596          1.54439
 357         77.12865          1.23563          5.08502          0.40465          0.80931          1.54056
 358         77.18875          1.23481          5.08837          0.40492          0.80984          1.54056
 359         77.19565          1.23472          5.08875          0.40495          0.80990          1.54056
 360         77.20555          1.23459          5.08930          0.40499          0.80999          1.54056
 361         77.28945          1.23346          5.09397          0.40537          0.81073          1.54056
 362         77.35595          1.23563          5.08502          0.40465          0.80931          1.54439
 363         77.41625          1.23481          5.08837          0.40492          0.80984          1.54439
 364         77.42325          1.23472          5.08875          0.40495          0.80990          1.54439
 365         77.43315          1.23459          5.08930          0.40499          0.80999          1.54439
 366         77.51745          1.23346          5.09397          0.40537          0.81073          1.54439
 367         77.58255          1.22953          5.11025          0.40666          0.81332          1.54056
 368         77.58855          1.22945          5.11058          0.40669          0.81337          1.54056
 369         77.81165          1.22953          5.11025          0.40666          0.81332          1.54439
 370         77.81775          1.22945          5.11058          0.40669          0.81337          1.54439
 371         77.92565          1.22497          5.12926          0.40817          0.81635          1.54056
 372         78.15615          1.22497          5.12926          0.40817          0.81635          1.54439
 373         78.86535          1.21271          5.18110          0.41230          0.82460          1.54056
 374         78.94315          1.21171          5.18538          0.41264          0.82528          1.54056
 375         78.98965          1.21112          5.18793          0.41284          0.82568          1.54056
 376         79.09975          1.21271          5.18110          0.41230          0.82460          1.54439
 377         79.17795          1.21171          5.18538          0.41264          0.82528          1.54439
 378         79.22465          1.21112          5.18793          0.41284          0.82568          1.54439
 379         79.36205          1.20637          5.20836          0.41447          0.82894          1.54056
 380         79.59865          1.20636          5.20836          0.41447          0.82894          1.54439
 381         79.60705          1.20327          5.22177          0.41554          0.83107          1.54056
 382         79.61505          1.20317          5.22221          0.41557          0.83114          1.54056
 383         79.83885          1.20036          5.23444          0.41654          0.83309          1.54056
 384         79.84465          1.20327          5.22177          0.41554          0.83107          1.54439
 385         79.85265          1.20317          5.22221          0.41557          0.83114          1.54439
 386         79.95955          1.19885          5.24102          0.41707          0.83413          1.54056
 387         80.05875          1.19761          5.24643          0.41750          0.83500          1.54056
 388         80.07745          1.20036          5.23444          0.41654          0.83309          1.54439
 389         80.12655          1.19677          5.25013          0.41779          0.83558          1.54056
 390         80.19865          1.19885          5.24102          0.41707          0.83413          1.54439
 391         80.21825          1.19563          5.25512          0.41819          0.83638          1.54056
 392         80.29385          1.19470          5.25923          0.41852          0.83703          1.54056
 393         80.29825          1.19761          5.24643          0.41750          0.83500          1.54439
 394         80.36635          1.19677          5.25013          0.41779          0.83558          1.54439
 395         80.45845          1.19563          5.25512          0.41819          0.83638          1.54439
 396         80.53095          1.19177          5.27212          0.41954          0.83908          1.54056
 397         80.53435          1.19470          5.25923          0.41852          0.83703          1.54439
 398         80.59565          1.19098          5.27564          0.41982          0.83964          1.54056
 399         80.63745          1.19047          5.27791          0.42000          0.84000          1.54056
 400         80.63735          1.19047          5.27790          0.42000          0.84000          1.54056
 401         80.77245          1.19178          5.27212          0.41954          0.83908          1.54439
 402         80.83745          1.19098          5.27564          0.41982          0.83964          1.54439
 403         80.86845          1.18765          5.29043          0.42100          0.84200          1.54056
 404         80.87945          1.19047          5.27791          0.42000          0.84001          1.54439
 405         80.87935          1.19047          5.27790          0.42000          0.84000          1.54439
 406         80.92065          1.18702          5.29326          0.42122          0.84245          1.54056
 407         81.01015          1.18593          5.29811          0.42161          0.84322          1.54056
 408         81.11145          1.18765          5.29043          0.42100          0.84200          1.54439
 409         81.12135          1.18459          5.30412          0.42209          0.84418          1.54056
 410         81.16385          1.18702          5.29326          0.42122          0.84245          1.54439
 411         81.24575          1.18309          5.31085          0.42262          0.84525          1.54056
 412         81.25365          1.18593          5.29810          0.42161          0.84322          1.54439
 413         81.32375          1.18215          5.31506          0.42296          0.84592          1.54056
 414         81.36545          1.18458          5.30412          0.42209          0.84418          1.54439
 415         81.40505          1.18117          5.31945          0.42331          0.84662          1.54056
 416         81.43005          1.18087          5.32080          0.42342          0.84683          1.54056
 417         81.49035          1.18309          5.31085          0.42262          0.84525          1.54439
 418         81.56875          1.18215          5.31506          0.42296          0.84592          1.54439
 419         81.65025          1.18117          5.31944          0.42331          0.84662          1.54439
 420         81.67545          1.18087          5.32080          0.42342          0.84683          1.54439
 421         81.76305          1.17690          5.33874          0.42484          0.84969          1.54056
 422         81.86765          1.17566          5.34437          0.42529          0.85058          1.54056
 423         81.90105          1.17527          5.34617          0.42543          0.85087          1.54056
 424         82.00995          1.17690          5.33874          0.42484          0.84969          1.54439
 425         82.11505          1.17566          5.34437          0.42529          0.85058          1.54439
 426         82.14845          1.17527          5.34616          0.42543          0.85087          1.54439
 427         82.43695          1.16898          5.37492          0.42772          0.85544          1.54056
 428         82.53465          1.16785          5.38015          0.42814          0.85628          1.54056
 429         82.68675          1.16898          5.37492          0.42772          0.85544          1.54439
 430         82.74365          1.16543          5.39132          0.42903          0.85806          1.54056
 431         82.78485          1.16785          5.38015          0.42814          0.85628          1.54439
 432         82.86355          1.16404          5.39772          0.42954          0.85907          1.54056
 433         82.87505          1.16391          5.39834          0.42959          0.85917          1.54056
 434         82.94555          1.16310          5.40210          0.42989          0.85977          1.54056
 435         82.98705          1.16262          5.40431          0.43006          0.86012          1.54056
 436         82.99485          1.16543          5.39132          0.42903          0.85806          1.54439
 437         83.11525          1.16404          5.39772          0.42954          0.85907          1.54439
 438         83.12685          1.16391          5.39834          0.42959          0.85917          1.54439
 439         83.19755          1.16310          5.40210          0.42989          0.85977          1.54439
 440         83.21755          1.15999          5.41659          0.43104          0.86208          1.54056
 441         83.23925          1.16263          5.40431          0.43006          0.86012          1.54439
 442         83.26545          1.15944          5.41914          0.43124          0.86248          1.54056
 443         83.44365          1.15742          5.42861          0.43200          0.86399          1.54056
 444         83.47085          1.15999          5.41659          0.43104          0.86208          1.54439
 445         83.51895          1.15944          5.41914          0.43124          0.86248          1.54439
 446         83.69795          1.15742          5.42862          0.43200          0.86399          1.54439
 447         83.79345          1.15348          5.44717          0.43347          0.86694          1.54056
 448         84.04925          1.15348          5.44717          0.43347          0.86694          1.54439
 449         84.16625          1.14931          5.46690          0.43504          0.87008          1.54056
 450         84.20315          1.14891          5.46885          0.43520          0.87039          1.54056
 451         84.26205          1.14825          5.47196          0.43544          0.87089          1.54056
 452         84.42385          1.14931          5.46690          0.43504          0.87008          1.54439
 453         84.46075          1.14891          5.46884          0.43520          0.87039          1.54439
 454         84.51995          1.14825          5.47195          0.43544          0.87089          1.54439
 455         84.64805          1.14400          5.49230          0.43706          0.87413          1.54056
 456         84.90775          1.14400          5.49230          0.43706          0.87413          1.54439
 457         84.97545          1.14043          5.50951          0.43843          0.87687          1.54056
 458         85.13665          1.13868          5.51797          0.43911          0.87821          1.54056
 459         85.19445          1.13805          5.52100          0.43935          0.87869          1.54056
 460         85.21335          1.13785          5.52199          0.43943          0.87885          1.54056
 461         85.23675          1.14042          5.50952          0.43843          0.87687          1.54439
 462         85.39865          1.13868          5.51797          0.43911          0.87821          1.54439
 463         85.45665          1.13805          5.52100          0.43935          0.87869          1.54439
 464         85.47565          1.13785          5.52199          0.43943          0.87885          1.54439
 465         85.60205          1.13367          5.54232          0.44104          0.88209          1.54056
 466         85.86615          1.13367          5.54232          0.44104          0.88209          1.54439
 467         85.98475          1.12961          5.56228          0.44263          0.88526          1.54056
 468         86.03045          1.12912          5.56466          0.44282          0.88564          1.54056
 469         86.25055          1.12961          5.56227          0.44263          0.88526          1.54439
 470         86.29655          1.12912          5.56466          0.44282          0.88564          1.54439
 471         86.55955          1.12358          5.59213          0.44501          0.89002          1.54056
 472         86.82815          1.12358          5.59214          0.44501          0.89002          1.54439
 473         86.88835          1.12017          5.60915          0.44636          0.89272          1.54056
 474         86.94555          1.11958          5.61211          0.44660          0.89319          1.54056
 475         86.95235          1.11951          5.61246          0.44663          0.89325          1.54056
 476         86.98585          1.11916          5.61419          0.44676          0.89353          1.54056
 477         87.04105          1.11859          5.61704          0.44699          0.89398          1.54056
 478         87.15845          1.12017          5.60915          0.44636          0.89272          1.54439
 479         87.21595          1.11958          5.61211          0.44660          0.89319          1.54439
 480         87.22275          1.11951          5.61246          0.44663          0.89325          1.54439
 481         87.22385          1.11672          5.62647          0.44774          0.89548          1.54056
 482         87.25645          1.11916          5.61419          0.44676          0.89353          1.54439
 483         87.31195          1.11859          5.61704          0.44699          0.89398          1.54439
 484         87.31565          1.11578          5.63120          0.44812          0.89623          1.54056
 485         87.49555          1.11672          5.62647          0.44774          0.89548          1.54439
 486         87.52475          1.11365          5.64195          0.44897          0.89794          1.54056
 487         87.58775          1.11578          5.63119          0.44812          0.89623          1.54439
 488         87.65395          1.11235          5.64859          0.44950          0.89900          1.54056
 489         87.66225          1.11226          5.64902          0.44953          0.89907          1.54056
 490         87.68795          1.11200          5.65034          0.44964          0.89928          1.54056
 491         87.79785          1.11365          5.64195          0.44897          0.89794          1.54439
 492         87.92775          1.11234          5.64860          0.44950          0.89900          1.54439
 493         87.93455          1.10952          5.66299          0.45065          0.90129          1.54056
 494         87.93605          1.11226          5.64902          0.44953          0.89907          1.54439
 495         87.96195          1.11200          5.65034          0.44964          0.89928          1.54439
 496         88.13955          1.10747          5.67348          0.45148          0.90296          1.54056
 497         88.20965          1.10952          5.66299          0.45065          0.90129          1.54439
 498         88.22655          1.10660          5.67793          0.45184          0.90367          1.54056
 499         88.25585          1.10631          5.67943          0.45195          0.90391          1.54056
 500         88.41555          1.10747          5.67347          0.45148          0.90296          1.54439
 501         88.50305          1.10660          5.67793          0.45184          0.90367          1.54439
 502         88.53255          1.10631          5.67943          0.45195          0.90391          1.54439
 503         88.64525          1.10245          5.69929          0.45353          0.90707          1.54056
 504         88.69615          1.10195          5.70188          0.45374          0.90748          1.54056
 505         88.92385          1.10245          5.69929          0.45354          0.90707          1.54439
 506         88.92925          1.09966          5.71373          0.45468          0.90937          1.54056
 507         88.97495          1.10195          5.70188          0.45374          0.90748          1.54439
 508         89.20915          1.09966          5.71373          0.45468          0.90937          1.54439
 509         89.21525          1.09688          5.72825          0.45584          0.91168          1.54056
 510         89.36785          1.09540          5.73597          0.45645          0.91291          1.54056
 511         89.45905          1.09452          5.74059          0.45682          0.91364          1.54056
 512         89.49665          1.09688          5.72825          0.45584          0.91168          1.54439
 513         89.58845          1.09327          5.74713          0.45734          0.91468          1.54056
 514         89.64995          1.09540          5.73597          0.45645          0.91291          1.54439
 515         89.73945          1.09183          5.75475          0.45795          0.91590          1.54056
 516         89.74165          1.09452          5.74059          0.45682          0.91364          1.54439
 517         89.87165          1.09327          5.74713          0.45734          0.91468          1.54439
 518         89.93965          1.08991          5.76484          0.45875          0.91750          1.54056
 519         89.98095          1.08952          5.76692          0.45892          0.91783          1.54056
 520         89.98995          1.08944          5.76737          0.45895          0.91791          1.54056
 521         90.02335          1.09183          5.75475          0.45795          0.91590          1.54439
 522         90.04955          1.08887          5.77037          0.45919          0.91838          1.54056
 523         90.22465          1.08991          5.76484          0.45875          0.91750          1.54439
 524         90.26605          1.08952          5.76692          0.45892          0.91783          1.54439
 525         90.26945          1.08679          5.78143          0.46007          0.92014          1.54056
 526         90.27515          1.08944          5.76738          0.45895          0.91791          1.54439
 527         90.33505          1.08887          5.77037          0.45919          0.91838          1.54439
 528         90.55605          1.08679          5.78143          0.46007          0.92014          1.54439
 529         90.79905          1.08182          5.80796          0.46218          0.92437          1.54056
 530         91.05045          1.07949          5.82051          0.46318          0.92636          1.54056
 531         91.07495          1.07926          5.82173          0.46328          0.92656          1.54056
 532         91.08825          1.08182          5.80796          0.46218          0.92437          1.54439
 533         91.29135          1.07727          5.83251          0.46414          0.92827          1.54056
 534         91.34095          1.07949          5.82051          0.46318          0.92636          1.54439
 535         91.36555          1.07926          5.82173          0.46328          0.92656          1.54439
 536         91.58315          1.07727          5.83251          0.46414          0.92827          1.54439
 537         91.89335          1.07178          5.86239          0.46651          0.93303          1.54056
 538         91.91435          1.07159          5.86343          0.46660          0.93319          1.54056
 539         91.95005          1.07127          5.86519          0.46674          0.93347          1.54056
 540         92.06285          1.07025          5.87077          0.46718          0.93436          1.54056
 541         92.18825          1.07178          5.86239          0.46651          0.93303          1.54439
 542         92.19575          1.06905          5.87734          0.46770          0.93541          1.54056
 543         92.20925          1.07159          5.86343          0.46660          0.93319          1.54439
 544         92.24515          1.07127          5.86519          0.46674          0.93347          1.54439
 545         92.30685          1.06806          5.88282          0.46814          0.93628          1.54056
 546         92.31605          1.06797          5.88327          0.46818          0.93635          1.54056
 547         92.35865          1.07025          5.87078          0.46718          0.93436          1.54439
 548         92.49145          1.06641          5.89191          0.46886          0.93773          1.54056
 549         92.49225          1.06905          5.87734          0.46770          0.93541          1.54439
 550         92.58365          1.06559          5.89645          0.46922          0.93845          1.54056
 551         92.60145          1.06543          5.89732          0.46929          0.93859          1.54056
 552         92.60385          1.06806          5.88282          0.46814          0.93628          1.54439
 553         92.61305          1.06798          5.88327          0.46818          0.93635          1.54439
 554         92.63925          1.06509          5.89918          0.46944          0.93888          1.54056
 555         92.67525          1.06477          5.90095          0.46958          0.93917          1.54056
 556         92.69165          1.06463          5.90176          0.46965          0.93929          1.54056
 557         92.78945          1.06641          5.89191          0.46886          0.93773          1.54439
 558         92.88205          1.06559          5.89645          0.46922          0.93845          1.54439
 559         92.88345          1.06293          5.91118          0.47040          0.94079          1.54056
 560         92.89995          1.06543          5.89732          0.46929          0.93859          1.54439
 561         92.93025          1.06252          5.91347          0.47058          0.94116          1.54056
 562         92.93795          1.06509          5.89918          0.46944          0.93888          1.54439
 563         92.97415          1.06477          5.90095          0.46958          0.93917          1.54439
 564         92.99075          1.06463          5.90176          0.46965          0.93929          1.54439
 565         93.13305          1.06074          5.92340          0.47137          0.94274          1.54056
 566         93.18345          1.06293          5.91118          0.47040          0.94079          1.54439
 567         93.23045          1.06252          5.91347          0.47058          0.94116          1.54439
 568         93.42075          1.05823          5.93747          0.47249          0.94498          1.54056
 569         93.43435          1.06074          5.92340          0.47137          0.94274          1.54439
 570         93.55755          1.05704          5.94414          0.47302          0.94604          1.54056
 571         93.65455          1.05620          5.94886          0.47340          0.94679          1.54056
 572         93.67415          1.05603          5.94982          0.47347          0.94694          1.54056
 573         93.72365          1.05823          5.93747          0.47249          0.94498          1.54439
 574         93.86115          1.05704          5.94414          0.47302          0.94604          1.54439
 575         93.95735          1.05359          5.96359          0.47457          0.94914          1.54056
 576         93.95865          1.05620          5.94887          0.47340          0.94679          1.54439
 577         93.97835          1.05603          5.94982          0.47347          0.94694          1.54439
 578         94.20515          1.05147          5.97561          0.47552          0.95105          1.54056
 579         94.26305          1.05359          5.96359          0.47457          0.94914          1.54439
 580         94.50655          1.04891          5.99020          0.47668          0.95337          1.54056
 581         94.51215          1.05147          5.97561          0.47552          0.95105          1.54439
 582         94.60395          1.04809          5.99490          0.47706          0.95412          1.54056
 583         94.78615          1.04655          6.00369          0.47776          0.95552          1.54056
 584         94.81525          1.04891          5.99020          0.47668          0.95337          1.54439
 585         94.89995          1.04560          6.00917          0.47819          0.95639          1.54056
 586         94.91315          1.04809          5.99490          0.47706          0.95412          1.54439
 587         95.09635          1.04655          6.00369          0.47776          0.95552          1.54439
 588         95.21075          1.04560          6.00917          0.47819          0.95639          1.54439
 589         95.22065          1.04292          6.02458          0.47942          0.95884          1.54056
 590         95.28395          1.04240          6.02762          0.47966          0.95933          1.54056
 591         95.32615          1.04205          6.02964          0.47982          0.95965          1.54056
 592         95.46525          1.04090          6.03631          0.48035          0.96071          1.54056
 593         95.53325          1.04292          6.02458          0.47942          0.95884          1.54439
 594         95.54555          1.04024          6.04015          0.48066          0.96132          1.54056
 595         95.59685          1.04240          6.02762          0.47966          0.95933          1.54439
 596         95.63935          1.04205          6.02964          0.47982          0.95965          1.54439
 597         95.73715          1.03866          6.04931          0.48139          0.96278          1.54056
 598         95.77915          1.04090          6.03631          0.48035          0.96071          1.54439
 599         95.85045          1.03773          6.05471          0.48182          0.96364          1.54056
 600         95.85995          1.04024          6.04015          0.48066          0.96132          1.54439
 601         95.88555          1.03745          6.05639          0.48195          0.96390          1.54056
 602         95.90935          1.03725          6.05752          0.48204          0.96408          1.54056
 603         96.05255          1.03866          6.04931          0.48139          0.96278          1.54439
 604         96.16645          1.03773          6.05471          0.48182          0.96364          1.54439
 605         96.20185          1.03745          6.05639          0.48195          0.96390          1.54439
 606         96.20375          1.03486          6.07154          0.48316          0.96632          1.54056
 607         96.22575          1.03725          6.05753          0.48204          0.96409          1.54439
 608         96.29585          1.03411          6.07591          0.48351          0.96701          1.54056
 609         96.35725          1.03362          6.07883          0.48374          0.96748          1.54056
 610         96.40015          1.03327          6.08087          0.48390          0.96780          1.54056
 611         96.46725          1.03273          6.08405          0.48415          0.96831          1.54056
 612         96.52185          1.03486          6.07154          0.48316          0.96632          1.54439
 613         96.61435          1.03411          6.07591          0.48351          0.96701          1.54439
 614         96.67615          1.03362          6.07883          0.48374          0.96748          1.54439
 615         96.71925          1.03327          6.08086          0.48390          0.96780          1.54439
 616         96.78675          1.03273          6.08405          0.48415          0.96831          1.54439
 617         97.26535          1.02637          6.12174          0.48715          0.97431          1.54056
 618         97.48075          1.02468          6.13187          0.48796          0.97592          1.54056
 619         97.58935          1.02637          6.12174          0.48715          0.97431          1.54439
 620         97.63795          1.02345          6.13924          0.48855          0.97709          1.54056
 621         97.65795          1.02329          6.14018          0.48862          0.97724          1.54056
 622         97.66685          1.02322          6.14059          0.48865          0.97731          1.54056
 623         97.68395          1.02309          6.14139          0.48872          0.97743          1.54056
 624         97.73895          1.02266          6.14397          0.48892          0.97784          1.54056
 625         97.76385          1.02246          6.14514          0.48901          0.97803          1.54056
 626         97.80605          1.02468          6.13187          0.48796          0.97592          1.54439
 627         97.82215          1.02201          6.14786          0.48923          0.97846          1.54056
 628         97.96405          1.02345          6.13924          0.48854          0.97709          1.54439
 629         97.98415          1.02329          6.14017          0.48862          0.97724          1.54439
 630         97.99315          1.02322          6.14059          0.48865          0.97731          1.54439
 631         98.01045          1.02309          6.14140          0.48872          0.97743          1.54439
 632         98.06565          1.02266          6.14397          0.48892          0.97784          1.54439
 633         98.07795          1.02003          6.15982          0.49018          0.98037          1.54056
 634         98.09075          1.02246          6.14514          0.48901          0.97803          1.54439
 635         98.14935          1.02201          6.14786          0.48923          0.97846          1.54439
 636         98.26945          1.01855          6.16874          0.49089          0.98179          1.54056
 637         98.40665          1.02003          6.15982          0.49018          0.98037          1.54439
 638         98.59925          1.01855          6.16874          0.49089          0.98179          1.54439
 639         98.64725          1.01566          6.18631          0.49229          0.98458          1.54056
 640         98.69185          1.01532          6.18837          0.49246          0.98491          1.54056
 641         98.92635          1.01354          6.19924          0.49332          0.98664          1.54056
 642         98.97935          1.01566          6.18631          0.49229          0.98458          1.54439
 643         98.98065          1.01313          6.20175          0.49352          0.98704          1.54056
 644         99.02415          1.01532          6.18837          0.49246          0.98491          1.54439
 645         99.19975          1.01148          6.21187          0.49432          0.98865          1.54056
 646         99.21835          1.01134          6.21273          0.49439          0.98879          1.54056
 647         99.26005          1.01354          6.19924          0.49332          0.98664          1.54439
 648         99.31465          1.01313          6.20175          0.49352          0.98704          1.54439
 649         99.33295          1.01048          6.21801          0.49481          0.98963          1.54056
 650         99.34575          1.01039          6.21860          0.49486          0.98972          1.54056
 651         99.40975          1.00991          6.22155          0.49509          0.99019          1.54056
 652         99.53505          1.01148          6.21187          0.49432          0.98865          1.54439
 653         99.55375          1.01134          6.21272          0.49439          0.98879          1.54439
 654         99.55585          1.00882          6.22827          0.49563          0.99126          1.54056
 655         99.60725          1.00844          6.23063          0.49582          0.99164          1.54056
 656         99.62205          1.00833          6.23131          0.49587          0.99174          1.54056
 657         99.66035          1.00804          6.23307          0.49601          0.99202          1.54056
 658         99.66915          1.01048          6.21801          0.49481          0.98963          1.54439
 659         99.68195          1.01039          6.21860          0.49486          0.98972          1.54439
 660         99.74635          1.00991          6.22155          0.49510          0.99019          1.54439
 661         99.89335          1.00882          6.22827          0.49563          0.99126          1.54439
 662         99.93315          1.00602          6.24558          0.49701          0.99401          1.54056
 663         99.94495          1.00844          6.23063          0.49582          0.99163          1.54439
 664         99.95535          1.00586          6.24659          0.49709          0.99418          1.54056
 665         99.95995          1.00832          6.23131          0.49587          0.99174          1.54439
 666         99.99845          1.00804          6.23307          0.49601          0.99202          1.54439
 667        100.13655          1.00453          6.25488          0.49775          0.99549          1.54056
 668        100.27285          1.00602          6.24558          0.49701          0.99401          1.54439
 669        100.29525          1.00586          6.24659          0.49709          0.99418          1.54439
 670        100.47755          1.00452          6.25488          0.49775          0.99550          1.54439
 671        100.51345          1.00177          6.27207          0.49912          0.99823          1.54056
 672        100.66235          1.00069          6.27884          0.49965          0.99931          1.54056
 673        100.85675          1.00177          6.27207          0.49912          0.99823          1.54439
 674        100.88655          0.99907          6.28901          0.50046          1.00093          1.54056
 675        100.93925          0.99869          6.29140          0.50065          1.00131          1.54056
 676        100.99795          0.99827          6.29406          0.50087          1.00173          1.54056
 677        101.00655          1.00069          6.27884          0.49965          0.99931          1.54439
 678        101.05235          0.99788          6.29652          0.50106          1.00212          1.54056
 679        101.23215          0.99907          6.28902          0.50046          1.00093          1.54439
 680        101.28505          0.99869          6.29140          0.50065          1.00131          1.54439
 681        101.33395          0.99587          6.30925          0.50207          1.00415          1.54056
 682        101.34415          0.99827          6.29406          0.50087          1.00173          1.54439
 683        101.39895          0.99788          6.29653          0.50106          1.00212          1.54439
 684        101.44265          0.99510          6.31415          0.50246          1.00493          1.54056
 685        101.49775          0.99471          6.31663          0.50266          1.00532          1.54056
 686        101.58185          0.99411          6.32042          0.50296          1.00593          1.54056
 687        101.64705          0.99365          6.32335          0.50320          1.00639          1.54056
 688        101.65555          0.99359          6.32373          0.50323          1.00645          1.54056
 689        101.68225          0.99587          6.30925          0.50207          1.00415          1.54439
 690        101.68915          0.99335          6.32524          0.50335          1.00669          1.54056
 691        101.71115          0.99320          6.32623          0.50343          1.00685          1.54056
 692        101.79165          0.99510          6.31415          0.50246          1.00493          1.54439
 693        101.84115          0.99228          6.33207          0.50389          1.00778          1.54056
 694        101.84705          0.99471          6.31663          0.50266          1.00532          1.54439
 695        101.92205          0.99171          6.33570          0.50418          1.00836          1.54056
 696        101.93175          0.99411          6.32042          0.50296          1.00593          1.54439
 697        101.95695          0.99147          6.33726          0.50430          1.00861          1.54056
 698        101.99725          0.99365          6.32335          0.50320          1.00639          1.54439
 699        102.00585          0.99359          6.32373          0.50323          1.00645          1.54439
 700        102.03965          0.99335          6.32524          0.50335          1.00669          1.54439
 701        102.06185          0.99320          6.32623          0.50343          1.00685          1.54439
 702        102.17745          0.98992          6.34713          0.50509          1.01018          1.54056
 703        102.19255          0.99228          6.33207          0.50389          1.00778          1.54439
 704        102.27405          0.99171          6.33570          0.50418          1.00836          1.54439
 705        102.30915          0.99147          6.33726          0.50430          1.00861          1.54439
 706        102.53105          0.98992          6.34713          0.50509          1.01018          1.54439
 707        102.53305          0.98746          6.36300          0.50635          1.01270          1.54056
 708        102.88885          0.98746          6.36300          0.50635          1.01270          1.54439
 709        102.93365          0.98470          6.38081          0.50777          1.01554          1.54056
 710        103.20435          0.98285          6.39279          0.50872          1.01744          1.54056
 711        103.29215          0.98470          6.38081          0.50777          1.01554          1.54439
 712        103.31795          0.98208          6.39781          0.50912          1.01824          1.54056
 713        103.34555          0.98190          6.39903          0.50922          1.01844          1.54056
 714        103.50305          0.98083          6.40598          0.50977          1.01954          1.54056
 715        103.51295          0.98077          6.40641          0.50981          1.01961          1.54056
 716        103.56455          0.98285          6.39279          0.50872          1.01744          1.54439
 717        103.61255          0.98009          6.41080          0.51016          1.02031          1.54056
 718        103.67885          0.98208          6.39781          0.50912          1.01824          1.54439
 719        103.70665          0.98190          6.39903          0.50922          1.01844          1.54439
 720        103.80985          0.97877          6.41947          0.51085          1.02169          1.54056
 721        103.84385          0.97854          6.42097          0.51096          1.02193          1.54056
 722        103.86525          0.98083          6.40598          0.50977          1.01954          1.54439
 723        103.87515          0.98076          6.40641          0.50981          1.01961          1.54439
 724        103.96025          0.97776          6.42607          0.51137          1.02274          1.54056
 725        103.97545          0.98009          6.41080          0.51016          1.02031          1.54439
 726        104.10895          0.97677          6.43259          0.51189          1.02378          1.54056
 727        104.17395          0.97877          6.41947          0.51085          1.02169          1.54439
 728        104.20815          0.97854          6.42096          0.51096          1.02193          1.54439
 729        104.32535          0.97776          6.42607          0.51137          1.02274          1.54439
 730        104.35995          0.97511          6.44356          0.51276          1.02552          1.54056
 731        104.47505          0.97677          6.43259          0.51189          1.02378          1.54439
 732        104.54275          0.97391          6.45153          0.51340          1.02679          1.54056
 733        104.57475          0.97370          6.45292          0.51351          1.02701          1.54056
 734        104.72775          0.97511          6.44356          0.51276          1.02552          1.54439
 735        104.78385          0.97233          6.46202          0.51423          1.02846          1.54056
 736        104.91175          0.97391          6.45153          0.51340          1.02679          1.54439
 737        104.94395          0.97370          6.45292          0.51351          1.02701          1.54439
 738        105.15445          0.97233          6.46202          0.51423          1.02846          1.54439
 739        105.39195          0.96838          6.48834          0.51633          1.03265          1.54056
 740        105.50115          0.96768          6.49305          0.51670          1.03340          1.54056
 741        105.65575          0.96669          6.49970          0.51723          1.03446          1.54056
 742        105.76665          0.96838          6.48834          0.51633          1.03265          1.54439
 743        105.87665          0.96768          6.49305          0.51670          1.03340          1.54439
 744        106.00165          0.96448          6.51455          0.51841          1.03682          1.54056
 745        106.03225          0.96669          6.49970          0.51723          1.03446          1.54439
 746        106.03725          0.96426          6.51608          0.51853          1.03707          1.54056
 747        106.17925          0.96336          6.52215          0.51902          1.03803          1.54056
 748        106.21765          0.96312          6.52379          0.51915          1.03829          1.54056
 749        106.25205          0.96290          6.52526          0.51926          1.03853          1.54056
 750        106.27705          0.96274          6.52633          0.51935          1.03870          1.54056
 751        106.35015          0.96228          6.52945          0.51960          1.03919          1.54056
 752        106.37705          0.96211          6.53060          0.51969          1.03938          1.54056
 753        106.38055          0.96448          6.51455          0.51841          1.03682          1.54439
 754        106.41635          0.96426          6.51608          0.51853          1.03707          1.54439
 755        106.55935          0.96336          6.52215          0.51902          1.03803          1.54439
 756        106.57415          0.96088          6.53900          0.52036          1.04071          1.54056
 757        106.59805          0.96312          6.52379          0.51915          1.03829          1.54439
 758        106.63265          0.96290          6.52526          0.51926          1.03853          1.54439
 759        106.65785          0.96274          6.52633          0.51935          1.03870          1.54439
 760        106.73155          0.96228          6.52946          0.51960          1.03920          1.54439
 761        106.75855          0.96211          6.53060          0.51969          1.03938          1.54439
 762        106.95695          0.96088          6.53899          0.52036          1.04071          1.54439
 763        107.60425          0.95452          6.58257          0.52382          1.04765          1.54056
 764        107.77445          0.95348          6.58971          0.52439          1.04879          1.54056
 765        107.85715          0.95298          6.59318          0.52467          1.04934          1.54056
 766        107.93085          0.95254          6.59627          0.52491          1.04983          1.54056
 767        107.99445          0.95452          6.58257          0.52382          1.04765          1.54439
 768        108.11945          0.95140          6.60416          0.52554          1.05108          1.54056
 769        108.14475          0.95125          6.60522          0.52563          1.05125          1.54056
 770        108.16585          0.95348          6.58971          0.52439          1.04879          1.54439
 771        108.18675          0.95099          6.60697          0.52577          1.05153          1.54056
 772        108.24915          0.95298          6.59318          0.52467          1.04934          1.54439
 773        108.26835          0.95050          6.61037          0.52604          1.05207          1.54056
 774        108.28005          0.95043          6.61086          0.52608          1.05215          1.54056
 775        108.32335          0.95254          6.59627          0.52491          1.04983          1.54439
 776        108.47655          0.94926          6.61905          0.52673          1.05345          1.54056
 777        108.49055          0.94918          6.61963          0.52677          1.05355          1.54056
 778        108.51345          0.95140          6.60416          0.52554          1.05108          1.54439
 779        108.53885          0.95125          6.60522          0.52563          1.05125          1.54439
 780        108.58115          0.95099          6.60697          0.52577          1.05153          1.54439
 781        108.61635          0.94843          6.62486          0.52719          1.05438          1.54056
 782        108.66325          0.95050          6.61037          0.52604          1.05207          1.54439
 783        108.67515          0.95043          6.61086          0.52608          1.05215          1.54439
 784        108.87305          0.94926          6.61905          0.52673          1.05345          1.54439
 785        108.88715          0.94918          6.61963          0.52677          1.05355          1.54439
 786        108.92615          0.94659          6.63770          0.52821          1.05642          1.54056
 787        108.92685          0.94659          6.63773          0.52821          1.05643          1.54056
 788        108.93485          0.94654          6.63806          0.52824          1.05648          1.54056
 789        108.94975          0.94645          6.63867          0.52829          1.05658          1.54056
 790        109.01385          0.94843          6.62486          0.52719          1.05438          1.54439
 791        109.23225          0.94479          6.65034          0.52922          1.05843          1.54056
 792        109.31635          0.94430          6.65380          0.52949          1.05899          1.54056
 793        109.32595          0.94659          6.63770          0.52821          1.05642          1.54439
 794        109.32665          0.94659          6.63773          0.52821          1.05643          1.54439
 795        109.33475          0.94654          6.63806          0.52824          1.05648          1.54439
 796        109.34975          0.94645          6.63867          0.52829          1.05658          1.54439
 797        109.53205          0.94304          6.66267          0.53020          1.06040          1.54056
 798        109.63445          0.94479          6.65034          0.52922          1.05843          1.54439
 799        109.71905          0.94430          6.65380          0.52949          1.05899          1.54439
 800        109.72645          0.94192          6.67065          0.53083          1.06167          1.54056
 801        109.93635          0.94304          6.66267          0.53020          1.06040          1.54439
 802        109.97685          0.94047          6.68089          0.53165          1.06330          1.54056
 803        110.03095          0.94016          6.68310          0.53182          1.06365          1.54056
 804        110.08755          0.93984          6.68541          0.53201          1.06402          1.54056
 805        110.10715          0.93972          6.68621          0.53207          1.06414          1.54056
 806        110.13225          0.94192          6.67065          0.53083          1.06167          1.54439
 807        110.25265          0.93889          6.69213          0.53254          1.06509          1.54056
 808        110.38455          0.94047          6.68089          0.53165          1.06330          1.54439
 809        110.39285          0.93809          6.69784          0.53300          1.06599          1.54056
 810        110.43905          0.94016          6.68310          0.53182          1.06365          1.54439
 811        110.49605          0.93984          6.68541          0.53201          1.06402          1.54439
 812        110.49865          0.93749          6.70213          0.53334          1.06668          1.54056
 813        110.51585          0.93972          6.68621          0.53207          1.06414          1.54439
 814        110.61005          0.93686          6.70665          0.53370          1.06740          1.54056
 815        110.61675          0.93682          6.70692          0.53372          1.06744          1.54056
 816        110.66245          0.93889          6.69213          0.53254          1.06509          1.54439
 817        110.80375          0.93809          6.69784          0.53300          1.06599          1.54439
 818        110.80925          0.93573          6.71471          0.53434          1.06868          1.54056
 819        110.84505          0.93553          6.71616          0.53445          1.06891          1.54056
 820        110.91035          0.93749          6.70213          0.53334          1.06668          1.54439
 821        110.91885          0.93512          6.71914          0.53469          1.06938          1.54056
 822        110.94695          0.93496          6.72027          0.53478          1.06956          1.54056
 823        110.98355          0.93475          6.72175          0.53490          1.06980          1.54056
 824        111.02255          0.93686          6.70665          0.53370          1.06740          1.54439
 825        111.02935          0.93682          6.70692          0.53372          1.06744          1.54439
 826        111.22345          0.93573          6.71471          0.53434          1.06868          1.54439
 827        111.25945          0.93553          6.71616          0.53445          1.06891          1.54439
 828        111.32565          0.93284          6.73551          0.53600          1.07199          1.54056
 829        111.33385          0.93512          6.71914          0.53469          1.06938          1.54439
 830        111.36215          0.93496          6.72027          0.53478          1.06956          1.54439
 831        111.38755          0.93250          6.73800          0.53619          1.07239          1.54056
 832        111.39905          0.93475          6.72175          0.53490          1.06980          1.54439
 833        111.41415          0.93235          6.73906          0.53628          1.07256          1.54056
 834        111.47825          0.93200          6.74163          0.53648          1.07296          1.54056
 835        111.57525          0.93146          6.74552          0.53679          1.07358          1.54056
 836        111.72075          0.93066          6.75134          0.53725          1.07451          1.54056
 837        111.74385          0.93284          6.73551          0.53600          1.07199          1.54439
 838        111.76145          0.93043          6.75296          0.53738          1.07477          1.54056
 839        111.80625          0.93250          6.73800          0.53619          1.07239          1.54439
 840        111.83305          0.93235          6.73907          0.53628          1.07256          1.54439
 841        111.89765          0.93200          6.74164          0.53648          1.07296          1.54439
 842        111.99545          0.93146          6.74552          0.53679          1.07358          1.54439
 843        112.07475          0.92872          6.76545          0.53838          1.07675          1.54056
 844        112.14205          0.93066          6.75134          0.53725          1.07451          1.54439
 845        112.18305          0.93043          6.75296          0.53738          1.07477          1.54439
 846        112.21705          0.92794          6.77110          0.53883          1.07765          1.54056
 847        112.28585          0.92757          6.77383          0.53904          1.07809          1.54056
 848        112.49885          0.92872          6.76544          0.53838          1.07675          1.54439
 849        112.64235          0.92794          6.77110          0.53883          1.07765          1.54439
 850        112.70835          0.92529          6.79054          0.54037          1.08075          1.54056
 851        112.71165          0.92757          6.77383          0.53904          1.07809          1.54439
 852        112.77195          0.92494          6.79305          0.54057          1.08115          1.54056
 853        112.89345          0.92429          6.79783          0.54095          1.08191          1.54056
 854        113.05515          0.92343          6.80419          0.54146          1.08292          1.54056
 855        113.13765          0.92529          6.79054          0.54037          1.08075          1.54439
 856        113.18545          0.92274          6.80930          0.54187          1.08373          1.54056
 857        113.18925          0.92272          6.80944          0.54188          1.08376          1.54056
 858        113.20165          0.92494          6.79304          0.54057          1.08115          1.54439
 859        113.32425          0.92429          6.79783          0.54095          1.08191          1.54439
 860        113.41735          0.92151          6.81837          0.54259          1.08518          1.54056
 861        113.48725          0.92343          6.80419          0.54146          1.08292          1.54439
 862        113.61865          0.92274          6.80930          0.54187          1.08373          1.54439
 863        113.62245          0.92272          6.80944          0.54188          1.08376          1.54439
 864        113.64375          0.92032          6.82720          0.54329          1.08658          1.54056
 865        113.67975          0.92013          6.82861          0.54340          1.08681          1.54056
 866        113.70595          0.91999          6.82963          0.54348          1.08697          1.54056
 867        113.84445          0.91926          6.83501          0.54391          1.08783          1.54056
 868        113.85245          0.92151          6.81837          0.54259          1.08518          1.54439
 869        113.88875          0.91903          6.83673          0.54405          1.08810          1.54056
 870        113.90755          0.91894          6.83746          0.54411          1.08822          1.54056
 871        113.94745          0.91873          6.83901          0.54423          1.08846          1.54056
 872        114.08075          0.92032          6.82720          0.54329          1.08658          1.54439
 873        114.08755          0.91800          6.84444          0.54466          1.08933          1.54056
 874        114.11705          0.92013          6.82861          0.54340          1.08681          1.54439
 875        114.12655          0.91780          6.84595          0.54478          1.08957          1.54056
 876        114.14345          0.91999          6.82963          0.54348          1.08697          1.54439
 877        114.21185          0.91735          6.84925          0.54505          1.09009          1.54056
 878        114.28315          0.91926          6.83501          0.54391          1.08783          1.54439
 879        114.32785          0.91903          6.83673          0.54405          1.08810          1.54439
 880        114.34675          0.91894          6.83746          0.54411          1.08822          1.54439
 881        114.38705          0.91873          6.83901          0.54423          1.08846          1.54439
 882        114.52835          0.91800          6.84444          0.54466          1.08933          1.54439
 883        114.55625          0.91558          6.86253          0.54610          1.09221          1.54056
 884        114.56755          0.91780          6.84595          0.54478          1.08957          1.54439
 885        114.64665          0.91511          6.86601          0.54638          1.09276          1.54056
 886        114.65365          0.91735          6.84925          0.54505          1.09009          1.54439
 887        114.69685          0.91486          6.86794          0.54653          1.09307          1.54056
 888        114.83055          0.91417          6.87307          0.54694          1.09388          1.54056
 889        115.00095          0.91558          6.86253          0.54610          1.09221          1.54439
 890        115.09215          0.91511          6.86601          0.54638          1.09276          1.54439
 891        115.14285          0.91486          6.86794          0.54653          1.09307          1.54439
 892        115.27765          0.91417          6.87307          0.54694          1.09388          1.54439
 893        115.42725          0.91115          6.89585          0.54875          1.09751          1.54056
 894        115.45765          0.91100          6.89701          0.54885          1.09769          1.54056
 895        115.75095          0.90953          6.90813          0.54973          1.09946          1.54056
 896        115.83485          0.90912          6.91130          0.54998          1.09997          1.54056
 897        115.87955          0.91115          6.89585          0.54875          1.09751          1.54439
 898        115.91025          0.91100          6.89701          0.54885          1.09769          1.54439
 899        116.11725          0.90772          6.92196          0.55083          1.10166          1.54056
 900        116.16705          0.90747          6.92383          0.55098          1.10196          1.54056
 901        116.20605          0.90954          6.90813          0.54973          1.09946          1.54439
 902        116.29075          0.90912          6.91130          0.54998          1.09997          1.54439
 903        116.51845          0.90575          6.93703          0.55203          1.10406          1.54056
 904        116.57565          0.90772          6.92196          0.55083          1.10166          1.54439
 905        116.62595          0.90747          6.92384          0.55098          1.10196          1.54439
 906        116.80795          0.90434          6.94785          0.55289          1.10578          1.54056
 907        116.81705          0.90429          6.94818          0.55292          1.10584          1.54056
 908        116.98055          0.90575          6.93703          0.55203          1.10406          1.54439
 909        117.14695          0.90270          6.96046          0.55390          1.10779          1.54056
 910        117.16835          0.90259          6.96125          0.55396          1.10792          1.54056
 911        117.26505          0.90213          6.96484          0.55424          1.10849          1.54056
 912        117.27265          0.90434          6.94785          0.55289          1.10578          1.54439
 913        117.27215          0.90210          6.96510          0.55427          1.10853          1.54056
 914        117.28175          0.90429          6.94818          0.55292          1.10584          1.54439
 915        117.45995          0.90120          6.97205          0.55482          1.10964          1.54056
 916        117.61475          0.90270          6.96046          0.55390          1.10779          1.54439
 917        117.63635          0.90259          6.96125          0.55396          1.10792          1.54439
 918        117.73395          0.90213          6.96484          0.55424          1.10849          1.54439
 919        117.74115          0.90210          6.96510          0.55427          1.10853          1.54439
 920        117.93075          0.90120          6.97205          0.55482          1.10964          1.54439
 921        118.04835          0.89841          6.99370          0.55654          1.11308          1.54056
 922        118.27905          0.89732          7.00214          0.55721          1.11442          1.54056
 923        118.47355          0.89642          7.00923          0.55778          1.11555          1.54056
 924        118.47665          0.89640          7.00934          0.55779          1.11557          1.54056
 925        118.52455          0.89841          6.99370          0.55654          1.11308          1.54439
 926        118.54955          0.89606          7.01199          0.55800          1.11599          1.54056
 927        118.60745          0.89579          7.01410          0.55816          1.11633          1.54056
 928        118.63735          0.89566          7.01518          0.55825          1.11650          1.54056
 929        118.71705          0.89529          7.01808          0.55848          1.11696          1.54056
 930        118.75745          0.89732          7.00214          0.55721          1.11442          1.54439
 931        118.84565          0.89469          7.02274          0.55885          1.11770          1.54056
 932        118.84855          0.89468          7.02284          0.55886          1.11772          1.54056
 933        118.95385          0.89642          7.00923          0.55778          1.11555          1.54439
 934        118.95695          0.89640          7.00934          0.55779          1.11557          1.54439
 935        119.00545          0.89396          7.02852          0.55931          1.11862          1.54056
 936        119.03055          0.89606          7.01199          0.55800          1.11599          1.54439
 937        119.07735          0.89363          7.03111          0.55952          1.11904          1.54056
 938        119.08905          0.89579          7.01410          0.55816          1.11633          1.54439
 939        119.11925          0.89565          7.01519          0.55825          1.11650          1.54439
 940        119.12455          0.89341          7.03282          0.55965          1.11931          1.54056
 941        119.19965          0.89529          7.01808          0.55848          1.11696          1.54439
 942        119.22165          0.89297          7.03632          0.55993          1.11986          1.54056
 943        119.30665          0.89258          7.03937          0.56018          1.12035          1.54056
 944        119.32955          0.89469          7.02274          0.55885          1.11770          1.54439
 945        119.33245          0.89468          7.02284          0.55886          1.11772          1.54439
 946        119.45435          0.89190          7.04468          0.56060          1.12120          1.54056
 947        119.49085          0.89396          7.02852          0.55931          1.11862          1.54439
 948        119.56355          0.89363          7.03112          0.55952          1.11904          1.54439
 949        119.56545          0.89140          7.04867          0.56091          1.12183          1.54056
 950        119.61115          0.89341          7.03282          0.55965          1.11931          1.54439
 951        119.70925          0.89296          7.03632          0.55993          1.11986          1.54439
 952        119.79505          0.89258          7.03938          0.56018          1.12035          1.54439
 953        119.90345          0.88988          7.06074          0.56188          1.12375          1.54056
 954        119.92095          0.88980          7.06137          0.56193          1.12385          1.54056
 955        119.94415          0.89191          7.04468          0.56060          1.12120          1.54439
 956        119.99185          0.88948          7.06389          0.56213          1.12425          1.54056
 957        119.99615          0.88946          7.06404          0.56214          1.12428          1.54056
 958        120.02465          0.88933          7.06506          0.56222          1.12444          1.54056
 959        120.05645          0.89140          7.04867          0.56092          1.12183          1.54439
 960        120.13365          0.88884          7.06893          0.56253          1.12506          1.54056
 961        120.20995          0.88850          7.07164          0.56274          1.12549          1.54056
 962        120.39785          0.88988          7.06075          0.56188          1.12375          1.54439
 963        120.41545          0.88980          7.06137          0.56193          1.12385          1.54439
 964        120.48705          0.88948          7.06389          0.56213          1.12425          1.54439
 965        120.49145          0.88946          7.06405          0.56214          1.12428          1.54439
 966        120.52025          0.88933          7.06506          0.56222          1.12444          1.54439
 967        120.63035          0.88884          7.06894          0.56253          1.12506          1.54439
 968        120.67685          0.88644          7.08815          0.56406          1.12811          1.54056
 969        120.70735          0.88850          7.07164          0.56274          1.12549          1.54439
 970        120.86245          0.88562          7.09468          0.56458          1.12915          1.54056
 971        121.09125          0.88462          7.10270          0.56521          1.13043          1.54056
 972        121.17905          0.88644          7.08815          0.56406          1.12811          1.54439
 973        121.36655          0.88562          7.09468          0.56458          1.12915          1.54439
 974        121.47355          0.88296          7.11604          0.56628          1.13255          1.54056
 975        121.59765          0.88462          7.10270          0.56521          1.13043          1.54439
 976        121.63075          0.88228          7.12151          0.56671          1.13342          1.54056
 977        121.67895          0.88208          7.12318          0.56684          1.13369          1.54056
 978        121.69235          0.88202          7.12364          0.56688          1.13376          1.54056
 979        121.73665          0.88183          7.12518          0.56700          1.13401          1.54056
 980        121.80455          0.88154          7.12753          0.56719          1.13438          1.54056
 981        121.84845          0.88135          7.12905          0.56731          1.13462          1.54056
 982        121.98395          0.88296          7.11604          0.56628          1.13255          1.54439
 983        122.09275          0.88031          7.13748          0.56798          1.13597          1.54056
 984        122.14285          0.88228          7.12151          0.56671          1.13342          1.54439
 985        122.14885          0.88007          7.13942          0.56814          1.13627          1.54056
 986        122.19155          0.88208          7.12318          0.56684          1.13369          1.54439
 987        122.20505          0.88202          7.12364          0.56688          1.13376          1.54439
 988        122.24985          0.88183          7.12518          0.56700          1.13401          1.54439
 989        122.31845          0.88154          7.12753          0.56719          1.13438          1.54439
 990        122.36285          0.88135          7.12905          0.56731          1.13462          1.54439
 991        122.58485          0.87823          7.15438          0.56933          1.13865          1.54056
 992        122.60975          0.88031          7.13748          0.56798          1.13597          1.54439
 993        122.66655          0.88007          7.13942          0.56814          1.13627          1.54439
 994        122.77065          0.87745          7.16072          0.56983          1.13966          1.54056
 995        122.86125          0.87707          7.16381          0.57008          1.14016          1.54056
 996        122.89445          0.87694          7.16494          0.57017          1.14033          1.54056
 997        122.93975          0.87675          7.16648          0.57029          1.14058          1.54056
 998        123.10725          0.87823          7.15438          0.56933          1.13865          1.54439
 999        123.12185          0.87599          7.17266          0.57078          1.14156          1.54056
 ***        123.21275          0.87562          7.17574          0.57103          1.14205          1.54056
 ***        123.29505          0.87745          7.16072          0.56983          1.13966          1.54439
 ***        123.29825          0.87526          7.17863          0.57126          1.14251          1.54056
 ***        123.38655          0.87707          7.16380          0.57008          1.14015          1.54439
 ***        123.42015          0.87694          7.16493          0.57017          1.14033          1.54439
 ***        123.46605          0.87675          7.16648          0.57029          1.14058          1.54439
 ***        123.47715          0.87453          7.18467          0.57174          1.14348          1.54056
 ***        123.58135          0.87410          7.18818          0.57202          1.14403          1.54056
 ***        123.61195          0.87397          7.18921          0.57210          1.14420          1.54056
 ***        123.65015          0.87599          7.17266          0.57078          1.14156          1.54439
 ***        123.65135          0.87381          7.19053          0.57220          1.14441          1.54056
 ***        123.71415          0.87356          7.19264          0.57237          1.14474          1.54056
 ***        123.74205          0.87562          7.17574          0.57103          1.14205          1.54439
 ***        123.82855          0.87526          7.17863          0.57126          1.14251          1.54439
 ***        123.88585          0.87286          7.19840          0.57283          1.14566          1.54056
 ***        123.93095          0.87268          7.19991          0.57295          1.14590          1.54056
 ***        124.00935          0.87453          7.18467          0.57174          1.14348          1.54439
 ***        124.08145          0.87207          7.20494          0.57335          1.14670          1.54056
 ***        124.11475          0.87410          7.18818          0.57202          1.14403          1.54439
 ***        124.14575          0.87397          7.18921          0.57210          1.14420          1.54439
 ***        124.18095          0.87167          7.20825          0.57361          1.14723          1.54056
 ***        124.18565          0.87381          7.19054          0.57220          1.14441          1.54439
 ***        124.24905          0.87356          7.19264          0.57237          1.14474          1.54439
 ***        124.37535          0.87088          7.21472          0.57413          1.14826          1.54056
 ***        124.40435          0.87077          7.21568          0.57421          1.14841          1.54056
 ***        124.42275          0.87286          7.19840          0.57283          1.14566          1.54439
 ***        124.44505          0.87060          7.21704          0.57431          1.14863          1.54056
 ***        124.46835          0.87268          7.19991          0.57295          1.14590          1.54439
 ***        124.59215          0.87002          7.22191          0.57470          1.14940          1.54056
 ***        124.62055          0.87207          7.20494          0.57335          1.14670          1.54439
 ***        124.62805          0.86987          7.22310          0.57480          1.14959          1.54056
 ***        124.72125          0.87167          7.20826          0.57361          1.14723          1.54439
 ***        124.91785          0.87088          7.21472          0.57413          1.14826          1.54439
 ***        124.94725          0.87077          7.21569          0.57421          1.14841          1.54439
 ***        124.98835          0.87060          7.21704          0.57431          1.14863          1.54439
 ***        125.01005          0.86836          7.23569          0.57580          1.15160          1.54056
 ***        125.13715          0.87002          7.22191          0.57470          1.14940          1.54439
 ***        125.17355          0.86987          7.22310          0.57480          1.14959          1.54439
 ***        125.19205          0.86764          7.24166          0.57627          1.15255          1.54056
 ***        125.21525          0.86755          7.24242          0.57633          1.15267          1.54056
 ***        125.55995          0.86836          7.23569          0.57580          1.15160          1.54439
 ***        125.63045          0.86593          7.25597          0.57741          1.15482          1.54056
 ***        125.74415          0.86764          7.24166          0.57627          1.15255          1.54439
 ***        125.76755          0.86755          7.24242          0.57633          1.15267          1.54439
 ***        126.17715          0.86383          7.27367          0.57882          1.15764          1.54056
 ***        126.18775          0.86593          7.25597          0.57741          1.15482          1.54439
 ***        126.29575          0.86337          7.27749          0.57912          1.15825          1.54056
 ***        126.48075          0.86267          7.28343          0.57960          1.15919          1.54056
 ***        126.52035          0.86252          7.28469          0.57970          1.15940          1.54056
 ***        126.59145          0.86225          7.28697          0.57988          1.15976          1.54056
 ***        126.71045          0.86180          7.29077          0.58018          1.16036          1.54056
 ***        126.74115          0.86383          7.27367          0.57882          1.15764          1.54439
 ***        126.76685          0.86159          7.29257          0.58032          1.16065          1.54056
 ***        126.86115          0.86337          7.27748          0.57912          1.15825          1.54439
 ***        126.89575          0.86110          7.29668          0.58065          1.16130          1.54056
 ***        127.04845          0.86267          7.28342          0.57960          1.15919          1.54439
 ***        127.08865          0.86252          7.28470          0.57970          1.15940          1.54439
 ***        127.13205          0.86022          7.30418          0.58125          1.16250          1.54056
 ***        127.15565          0.86013          7.30493          0.58131          1.16262          1.54056
 ***        127.16065          0.86225          7.28697          0.57988          1.15976          1.54439
 ***        127.19705          0.85998          7.30624          0.58141          1.16282          1.54056
 ***        127.22725          0.85986          7.30720          0.58149          1.16298          1.54056
 ***        127.28105          0.86180          7.29077          0.58018          1.16036          1.54439
 ***        127.33825          0.86159          7.29257          0.58032          1.16065          1.54439
 ***        127.36515          0.85935          7.31155          0.58183          1.16367          1.54056
 ***        127.46795          0.85897          7.31480          0.58209          1.16419          1.54056
 ***        127.46875          0.86110          7.29668          0.58065          1.16130          1.54439
 ***        127.52085          0.85877          7.31646          0.58223          1.16445          1.54056
 ***        127.70805          0.86022          7.30418          0.58125          1.16250          1.54439
 ***        127.73195          0.86013          7.30493          0.58131          1.16262          1.54439
 ***        127.77385          0.85998          7.30624          0.58141          1.16282          1.54439
 ***        127.80445          0.85986          7.30720          0.58149          1.16298          1.54439
 ***        127.84225          0.85759          7.32655          0.58303          1.16606          1.54056
 ***        127.84355          0.85759          7.32659          0.58303          1.16606          1.54056
 ***        127.94405          0.85935          7.31155          0.58183          1.16367          1.54439
 ***        128.04814          0.85897          7.31479          0.58209          1.16419          1.54439
 ***        128.09055          0.85669          7.33430          0.58364          1.16729          1.54056
 ***        128.09195          0.85668          7.33434          0.58365          1.16730          1.54056
 ***        128.10175          0.85877          7.31646          0.58223          1.16445          1.54439
 ***        128.35744          0.85572          7.34259          0.58431          1.16861          1.54056
 ***        128.42744          0.85759          7.32655          0.58303          1.16606          1.54439
 ***        128.42865          0.85759          7.32659          0.58303          1.16606          1.54439
 ***        128.51584          0.85515          7.34750          0.58470          1.16939          1.54056
 ***        128.67894          0.85669          7.33430          0.58365          1.16729          1.54439
 ***        128.68034          0.85668          7.33434          0.58365          1.16730          1.54439
 ***        128.87054          0.85388          7.35843          0.58557          1.17113          1.54056
 ***        128.94934          0.85572          7.34259          0.58431          1.16861          1.54439
 ***        129.04904          0.85324          7.36390          0.58600          1.17200          1.54056
 ***        129.10205          0.85305          7.36553          0.58613          1.17226          1.54056
 ***        129.10985          0.85515          7.34750          0.58470          1.16939          1.54439
 ***        129.15924          0.85285          7.36727          0.58627          1.17254          1.54056
 ***        129.44385          0.85185          7.37595          0.58696          1.17392          1.54056
 ***        129.46944          0.85388          7.35843          0.58557          1.17113          1.54439
 ***        129.65034          0.85324          7.36391          0.58600          1.17200          1.54439
 ***        129.70404          0.85305          7.36553          0.58613          1.17226          1.54439
 ***        129.76195          0.85285          7.36727          0.58627          1.17254          1.54439
 ***        129.95674          0.85006          7.39146          0.58819          1.17639          1.54056
 ***        130.05054          0.85185          7.37595          0.58696          1.17392          1.54439
 ***        130.08064          0.84963          7.39519          0.58849          1.17698          1.54056
 ***        130.08514          0.84962          7.39533          0.58850          1.17700          1.54056
 ***        130.10884          0.84953          7.39604          0.58856          1.17712          1.54056
 ***        130.33264          0.84876          7.40274          0.58909          1.17818          1.54056
 ***        130.35175          0.84870          7.40331          0.58914          1.17827          1.54056
 ***        130.48244          0.84825          7.40721          0.58945          1.17889          1.54056
 ***        130.57054          0.85006          7.39146          0.58819          1.17639          1.54439
 ***        130.69635          0.84963          7.39519          0.58849          1.17698          1.54439
 ***        130.70084          0.84962          7.39533          0.58850          1.17700          1.54439
 ***        130.72484          0.84953          7.39604          0.58856          1.17712          1.54439
 ***        130.77095          0.84727          7.41579          0.59013          1.18026          1.54056
 ***        130.85834          0.84698          7.41838          0.59034          1.18067          1.54056
 ***        130.90834          0.84681          7.41986          0.59045          1.18091          1.54056
 ***        130.95184          0.84876          7.40274          0.58909          1.17818          1.54439
 ***        130.97124          0.84870          7.40331          0.58914          1.17827          1.54439
 ***        131.10164          0.84616          7.42557          0.59091          1.18182          1.54056
 ***        131.10384          0.84825          7.40722          0.58945          1.17889          1.54439
 ***        131.20595          0.84581          7.42863          0.59115          1.18230          1.54056
 ***        131.29404          0.84551          7.43122          0.59136          1.18272          1.54056
 ***        131.39655          0.84727          7.41579          0.59013          1.18026          1.54439
 ***        131.48524          0.84698          7.41838          0.59034          1.18067          1.54439
 ***        131.53595          0.84681          7.41986          0.59045          1.18091          1.54439
 ***        131.63374          0.84438          7.44116          0.59215          1.18430          1.54056
 ***        131.72205          0.84409          7.44373          0.59235          1.18471          1.54056
 ***        131.73204          0.84616          7.42556          0.59091          1.18182          1.54439
 ***        131.83794          0.84581          7.42864          0.59115          1.18230          1.54439
 ***        131.89165          0.84353          7.44866          0.59275          1.18549          1.54056
 ***        131.92734          0.84551          7.43122          0.59136          1.18272          1.54439
 ***        132.08864          0.84289          7.45437          0.59320          1.18640          1.54056
 ***        132.21605          0.84247          7.45805          0.59349          1.18698          1.54056
 ***        132.26285          0.84232          7.45939          0.59360          1.18720          1.54056
 ***        132.27214          0.84438          7.44116          0.59215          1.18430          1.54439
 ***        132.31075          0.84216          7.46077          0.59371          1.18742          1.54056
 ***        132.36174          0.84409          7.44373          0.59235          1.18471          1.54439
 ***        132.47954          0.84162          7.46562          0.59410          1.18819          1.54056
 ***        132.52405          0.84147          7.46690          0.59420          1.18839          1.54056
 ***        132.53384          0.84353          7.44866          0.59275          1.18549          1.54439
 ***        132.58635          0.84127          7.46868          0.59434          1.18868          1.54056
 ***        132.67334          0.84099          7.47117          0.59454          1.18907          1.54056
 ***        132.73395          0.84289          7.45437          0.59320          1.18640          1.54439
 ***        132.85315          0.84041          7.47630          0.59494          1.18989          1.54056
 ***        132.86325          0.84247          7.45804          0.59349          1.18698          1.54439
 ***        132.91084          0.84232          7.45939          0.59360          1.18720          1.54439
 ***        132.95944          0.84216          7.46077          0.59371          1.18742          1.54439
 ***        132.97984          0.84001          7.47990          0.59523          1.19046          1.54056
 ***        132.98534          0.83999          7.48006          0.59524          1.19049          1.54056
 ***        133.01575          0.83989          7.48092          0.59531          1.19063          1.54056
 ***        133.03384          0.83984          7.48143          0.59535          1.19071          1.54056
 ***        133.13084          0.84162          7.46562          0.59410          1.18819          1.54439
 ***        133.17604          0.84147          7.46690          0.59420          1.18839          1.54439
 ***        133.23944          0.84127          7.46869          0.59434          1.18868          1.54439
 ***        133.32774          0.84099          7.47117          0.59454          1.18907          1.54439
 ***        133.37665          0.83875          7.49112          0.59612          1.19225          1.54056
 ***        133.51035          0.84041          7.47630          0.59494          1.18989          1.54439
 ***        133.55664          0.83818          7.49618          0.59653          1.19305          1.54056
 ***        133.60184          0.83804          7.49745          0.59663          1.19326          1.54056
 ***        133.63904          0.84001          7.47990          0.59523          1.19046          1.54439
 ***        133.64474          0.83999          7.48006          0.59524          1.19049          1.54439
 ***        133.67554          0.83989          7.48092          0.59531          1.19063          1.54439
 ***        133.69394          0.83984          7.48143          0.59535          1.19071          1.54439
 ***        133.80785          0.83740          7.50322          0.59709          1.19417          1.54056
 ***        133.82184          0.83736          7.50361          0.59712          1.19424          1.54056
 ***        133.96104          0.83692          7.50749          0.59743          1.19485          1.54056
 ***        133.96515          0.83691          7.50760          0.59744          1.19487          1.54056
 ***        134.04224          0.83875          7.49112          0.59612          1.19225          1.54439
 ***        134.06544          0.83660          7.51039          0.59766          1.19532          1.54056
 ***        134.11224          0.83645          7.51169          0.59776          1.19552          1.54056
 ***        134.22514          0.83818          7.49618          0.59653          1.19305          1.54439
 ***        134.23145          0.83609          7.51499          0.59802          1.19605          1.54056
 ***        134.27115          0.83804          7.49745          0.59663          1.19326          1.54439
 ***        134.37524          0.83564          7.51897          0.59834          1.19668          1.54056
 ***        134.48044          0.83740          7.50321          0.59709          1.19417          1.54439
 ***        134.49474          0.83736          7.50361          0.59712          1.19424          1.54439
 ***        134.63625          0.83692          7.50749          0.59743          1.19485          1.54439
 ***        134.64035          0.83691          7.50760          0.59744          1.19487          1.54439
 ***        134.65305          0.83480          7.52661          0.59895          1.19790          1.54056
 ***        134.74245          0.83660          7.51039          0.59766          1.19532          1.54439
 ***        134.75244          0.83449          7.52934          0.59917          1.19833          1.54056
 ***        134.78995          0.83645          7.51169          0.59776          1.19552          1.54439
 ***        134.84105          0.83423          7.53176          0.59936          1.19872          1.54056
 ***        134.91124          0.83609          7.51500          0.59802          1.19605          1.54439
 ***        135.05745          0.83564          7.51897          0.59834          1.19668          1.54439
 ***        135.15845          0.83327          7.54041          0.60005          1.20009          1.54056
 ***        135.33984          0.83480          7.52661          0.59895          1.19790          1.54439
 ***        135.35234          0.83269          7.54566          0.60046          1.20093          1.54056
 ***        135.36574          0.83265          7.54602          0.60049          1.20099          1.54056
 ***        135.44104          0.83449          7.52934          0.59917          1.19833          1.54439
 ***        135.53114          0.83423          7.53176          0.59936          1.19872          1.54439
 ***        135.67934          0.83172          7.55447          0.60117          1.20233          1.54056
 ***        135.85405          0.83327          7.54041          0.60005          1.20009          1.54439
 ***        136.05135          0.83269          7.54566          0.60046          1.20093          1.54439
 ***        136.06505          0.83265          7.54603          0.60049          1.20099          1.54439
 ***        136.38414          0.83172          7.55447          0.60117          1.20233          1.54439
 ***        136.79845          0.82846          7.58416          0.60353          1.20706          1.54056
 ***        136.88284          0.82822          7.58637          0.60370          1.20741          1.54056
 ***        136.89294          0.82819          7.58663          0.60373          1.20745          1.54056
 ***        137.52385          0.82846          7.58416          0.60353          1.20706          1.54439
 ***        137.60974          0.82822          7.58637          0.60370          1.20741          1.54439
 ***        137.61795          0.82614          7.60544          0.60522          1.21044          1.54056
 ***        137.62004          0.82819          7.58663          0.60373          1.20745          1.54439
 ***        137.74895          0.82578          7.60881          0.60549          1.21098          1.54056
 ***        137.92055          0.82530          7.61320          0.60584          1.21168          1.54056
